{
	"meta" : {
		"lastupdated" : "2020-04-09T11:12:21Z"
	},
	"resourceType": "Bundle",
	"id": "corona-meldung",
	"identifier" : {
	 	"value" : "xyz",
	 	"system" : "fhir.de/test"
	 },
	"type": "document",
	"entry": [
		{
			"resource": {
				"resourceType": "Composition",
				"id": "180f511f-97a8-486d-99d9-ed631fe4fc57",
				"meta": {
					"lastUpdated": "2020-04-09T11:12:21Z"
				},
				"text": {
					"status": "generated",
					"div": "<div xmlns=\"http://www.w3.org/1999/xhtml\"><p>... Text ..</p></div>"
				},
				"status": "final",
				"type": {
					"coding": [
						{
							"system": "http://loinc.org",
							"code": "* where SCALE_TYP Equal Doc"
						}
					],
					"text": "Infektionsschutzmeldung Corona"
				},
				"category": {
					"coding": [
						{
							"system": "http://loinc.org",
							"code": "26436-6"
						}
					],
					"text": "Laboratory Studies (set)"
				},
				"subject": {
					"reference": "Patient/pat",
					"display": "Gabriele Mustermann"
				},
				"date": "2020-04-09T11:30:02Z",
				"author": [
					{
						"reference": "Practitioner/melder",
						"display": "Dr. Müller"
					}
				],
				"title": "Infektionsschutzmeldung",
				"confidentiality": "N",
				"section": [
					{
						"title": "meldepflichtige Krankheit",
						"code": {
							"coding": [
								{
									"system": "http://loinc.org",
									"code": "xxxxx",
									"display": "xxxxxx"
								}
							]
						},
						"text": {
							"status": "generated",
							"div": "<div xmlns=\"http://www.w3.org/1999/xhtml\">\n... meldepflichtige Krankheit ...  </div>"
						},
						"entry": [
							{
								"reference": "Condition/con1"
							}
						]
					},
					{
						"title": "epidemiologische Situation",
						"code": {
							"coding": [
								{
									"system": "http://loinc.org",
									"code": "xxxxx",
									"display": "epid. Situation"
								}
							]
						},
						"text": {
							"status": "generated",
							"div": "<div xmlns=\"http://www.w3.org/1999/xhtml\">\n... epidemiologische Situation ...    </div>"
						},
						"entry": [
							{
								"reference": "Observation/obs1"
							}
						]
					},
					{
						"title": "Impfstatus",
						"code": {
							"coding": [
								{
									"system": "http://loinc.org",
									"code": "xxxx",
									"display": "Impfstatus"
								}
							]
						},
						"text": {
							"status": "generated",
							"div": "<div xmlns=\"http://www.w3.org/1999/xhtml\">\n... Impfstatus ...    </div>"
						},
						"entry": [
							{
								"reference": "Observation/status"
							}
						]
					},
					{
						"title": "Symptome",
						"code": {
							"coding": [
								{
									"system": "http://loinc.org",
									"code": "xxxx",
									"display": "Symptome"
								}
							]
						},
						"text": {
							"status": "generated",
							"div": "<div xmlns=\"http://www.w3.org/1999/xhtml\">\n Symptome: Fieber + Husten </div>"
						},
						"entry": [
							{
								"reference": "Observation/symptom1"
							},
							{
								"reference": "Observation/symptom2"
							}
						]
					}
				]
			}
		},
		{
			"resource": {
				"resourceType": "Patient",
				"id": "pat",
				"identifier": [
					{
						"use": "official",
						"type": {
							"coding": [
								{
									"system": "http://fhir.de/Codesystem/identifier-type-de-basis",
									"code": "GKV"
								}
							]
						},
						"system": "http://fhir.de/NamingSystem/gkv/kvid-10",
						"value": "12345"
					}
				],
				"active": true,
				"name": [
					{
						"use": "official",
						"family": "Mustermann",
						"given": [
							"Gabriele"
						]
					}
				],
				"gender": "female",
				"birthDate": "1982-08-22",
				"deceasedBoolean": false,
				"address": [
					{
						"use": "home",
						"line": [
							"Musterweg 91"
						],
						"city": "Berlin",
						"postalCode": "12345",
						"country": "D"
					}
				]
			}
		},
		{
			"resource": {
				"resourceType": "Practitioner",
				"id": "melder",
				"identifier": [
					{
						"use": "official",
						"system": "xxxx",
						"value": "766554"
					}
				],
				"active": true,
				"name": [
					{
						"use": "official",
						"family": "Müller"
					}
				],
				"gender": "male"
			}
		},
		{
			"resource": {
				"resourceType": "Condition",
				"id": "con1",
				"code": {
					"coding": [
						{
							"system": "http://snomed.info/sct",
							"code": "840539006",
							"display": "COVID-19"
						}
					]
				},
				"subject": {
					"reference": "Patient/pat",
					"display": "Gabriele Mustermann"
				},
				"recordedDate": "2020-04-09"
			}
		},
		{
			"resource": {
				"resourceType": "Observation",
				"id": "obs1",
				"text": {
					"status": "generated",
					"div": "<div xmlns=\"http://www.w3.org/1999/xhtml\"><p>... Obs. f. epidem. Sit. ..</p></div>"
				},
				"status": "final",
				"category": {
					"coding": [
						{
							"system": "http://snomed.info/sct",
							"code": "xxxx",
							"display": "xxxx"
						}
					]
				},
				"code": {
					"coding": [
						{
							"system": "http://snomed.info/sct",
							"code": "xxxx",
							"display": "xxxx"
						}
					]
				},
				"subject": {
					"reference": "Patient/pat",
					"display": "Gabriele Mustermann"
				},
				"performer": {
					"reference": "Pratictioner/melder",
					"display": "Dr. Müller"
				},
				"component": [
					{
						"code": {
							"coding": [
								{
									"system": "http://snomed.info/sct",
									"code": "721965002",
									"display": "Laboratory order"
								}
							]
						},
						"valueBoolean": true
					},
					{
						"code": {
							"coding": [
								{
									"system": "http://loinc.org",
									"code": "68963-8",
									"display": "Collection date and time of Unspecified specimen"
								}
							]
						},
						"valueDateTime": "2020-04-09T11:12:21Z"
					},
					{
						"code": {
							"coding": [
								{
									"system": "http://snomed.info/sct",
									"code": "17636008",
									"display": "Specimen collection (procedure)"
								}
							]
						},
						"valueBoolean": true
					},
					{
						"code": {
							"coding": [
								{
									"system": "http://loinc.org",
									"code": "68994-3"
								}
							]
						},
						"valueString": "Zentrallabor Kleinpusemuckel, Irgendwo"
					}
				]
			}
		},
		{
			"resource": {
				"resourceType": "Observation",
				"id": "status",
				"status": "final",
				"code": {
					"coding": [
						{
							"system": "http://snomed.info/sct",
							"code": "31998-8",
							"display": "Bordetella pertussis Ab [Presence] in Serum"
						}
					]
				},
				"interpretation": {
					"coding": [
						{
							"system": "http://snomed.info/sct",
							"code": "191441008:704321009=10828004",
							"display": "Acquired immunity, function : Characterizes = Positive"
						}
					]
				}
			}
		},
		{
			"resource": {
				"resourceType": "Observation",
				"id": "symptom1",
				"text": {
					"status": "generated",
					"div": "<div xmlns=\"http://www.w3.org/1999/xhtml\"><p>... q. Symptom ..</p></div>"
				},
				"status": "final",
				"category": {
					"coding": [
						{
							"system": "http://snomed.info/sct",
							"code": "xxxx",
							"display": "xxxx"
						}
					]
				},
				"code": {
					"coding": [
						{
							"system": "http://fhir.de/CodeSystem/dimdi/icd-10-gm",
							"code": "R50.88",
							"display": "Fieber mit Schüttelfrost"
						}
					]
				},
				"subject": {
					"reference": "Patient/pat",
					"display": "Gabriele Mustermann"
				},
				"valueCodeableConcept": {
					"coding": [
						{
							"system": "http://loinc.org",
							"code": "",
							"display": ""
						}
					]
				}
			}
		},
		{
			"resource": {
				"resourceType": "Observation",
				"id": "symptom2",
				"text": {
					"status": "generated",
					"div": "<div xmlns=\"http://www.w3.org/1999/xhtml\"><p>... 2. Symptom ..</p></div>"
				},
				"status": "final",
				"category": {
					"coding": [
						{
							"system": "http://snomed.info/sct",
							"code": "xxxx",
							"display": "xxxx"
						}
					]
				},
				"code": {
					"coding": [
						{
							"system": "http://fhir.de/CodeSystem/dimdi/icd-10-gm",
							"code": "R05",
							"display": "Husten"
						}
					]
				},
				"subject": {
					"reference": "Patient/pat",
					"display": "Gabriele Mustermann"
				},
				"valueCodeableConcept": {
					"coding": [
						{
							"system": "http://loinc.org",
							"code": "",
							"display": ""
						}
					]
				}
			}
		},
		{
			"resource": {
				"resourceType": "Observation",
				"id": "expo_risk",
				"text": {
					"status": "generated",
					"div": "<div xmlns=\"http://www.w3.org/1999/xhtml\"><p>... Expositionsrisiko ..</p></div>"
				},
				"status": "final",
				"category": {
					"coding": [
						{
							"system": "http://snomed.info/sct",
							"code": "xxxx",
							"display": "xxxx"
						}
					]
				},
				"code": {
					"coding": [
						{
							"system": "http://snomed.info/sct",
							"code": "418715001",
							"display": "Exposure to potentially harmful entity (event)"
						}
					]
				},
				"subject": {
					"reference": "Patient/pat",
					"display": "Gabriele Mustermann"
				},
				"focus": {
					"reference": "Observation/exp_risk"
				},
				"effectivePeriod": {
					"start": "2020-03-01",
					"end": "2020-03-10"
				},
				"valueCodeableConcept": {
					"coding": [
						{
							"system": "http://snomed.info/sct",
							"code": "30629002",
							"display": "Retirement home (environment)"
						}
					]
				}
			}
		}
	],
	"signature": {
		"type": [
			{
				"system": "urn:iso-astm:E1762-95:2013",
				"code": "1.2.840.10065.1.12.1.1",
				"display": "Author's Signature"
			}
		],
		"who": {"reference":"Practitioner/melder","display":"Dr. Müller"},"when":"2020-04-06T10:10:00Z",
		"sigFormat": "image/jpg",
		"data": "dfslfjlfkjsfjsdöfksjdljaioötue8fijn"
	}
}